Participant,Food Rated,Food Rating,Trial Food C,Trial Food D,Decision,Opponent Decision,RT,
P21,Toast,3,NA,NA,NA,NA,8800.3526579,
P21,Carrots,5,NA,NA,NA,NA,13825.3585261,
P21,Chicken Wings,1,NA,NA,NA,NA,16021.6991211,
P21,Ham,1,NA,NA,NA,NA,18409.8399896,
P21,Fried Chicken,1,NA,NA,NA,NA,19625.986967,
P21,Potato Chips,7,NA,NA,NA,NA,22072.0862933,
P21,Avocado,7,NA,NA,NA,NA,26352.4105849,
P21,Boiled Spinach,2,NA,NA,NA,NA,29692.600309,
P21,Bagel,5,NA,NA,NA,NA,33103.9652163,
P21,Brussel Sprouts,5,NA,NA,NA,NA,35133.5819243,
P21,Sausage And Biscuit Sandwich,1,NA,NA,NA,NA,37481.9262828,
P21,Green Beans,2,NA,NA,NA,NA,40465.920938,
P21,Tomato Soup,6,NA,NA,NA,NA,43520.4352537,
P21,Jell-O,1,NA,NA,NA,NA,45434.6472146,
P21,Pizza,9,NA,NA,NA,NA,48040.1136769,
P21,Garlic Bread,9,NA,NA,NA,NA,49895.4229627,
P21,Turkey Sub,1,NA,NA,NA,NA,51756.9335582,
P21,Oysters,1,NA,NA,NA,NA,52885.0147211,
P21,French Fries,9,NA,NA,NA,NA,55063.3175202,
P21,Rigattoni With Marinara Sauce,6,NA,NA,NA,NA,62461.860671,
P21,French Toast,1,NA,NA,NA,NA,64807.5945269,
P21,Taco,9,NA,NA,NA,NA,67199.8751196,
P21,Cheeseburger,1,NA,NA,NA,NA,68959.7274086,
P21,Sushi,1,NA,NA,NA,NA,71130.2920618,
P21,Broccoli,8,NA,NA,NA,NA,73360.5711787,
P21,Pop Tart,5,NA,NA,NA,NA,76333.4924686,
P21,Baked Potato,5,NA,NA,NA,NA,78614.7037021,
P21,Asparagus,5,NA,NA,NA,NA,80073.8439545,
P21,Croissant,6,NA,NA,NA,NA,82446.5197877,
P21,Oatmeal,3,NA,NA,NA,NA,84929.1088767,
P21,Ruben Sandwich,1,NA,NA,NA,NA,86992.6872816,
P21,Chocolate Chip Cookie,9,NA,NA,NA,NA,89239.8037273,
P21,Peas,3,NA,NA,NA,NA,93048.4328541,
P21,Popcorn,9,NA,NA,NA,NA,94910.0099951,
P21,Veggie Sandwich,9,NA,NA,NA,NA,96824.6255327,
P21,Steak,1,NA,NA,NA,NA,99205.2772215,
P21,Fried Egg,1,NA,NA,NA,NA,100512.5031,
P21,Grilled Chicken Sandwich,1,NA,NA,NA,NA,101279.510517,
P21,Chicken Nuggets,1,NA,NA,NA,NA,102237.744459,
P21,Raspberry Shake,6,NA,NA,NA,NA,107485.654154,
P21,Waffles,6,NA,NA,NA,NA,109310.130704,
P21,Apple,3,NA,NA,NA,NA,111953.907494,
P21,Hot Dog,1,NA,NA,NA,NA,113694.281824,
P21,Glazed Donut,9,NA,NA,NA,NA,115632.468695,
P21,Bacon,1,NA,NA,NA,NA,117812.14478,
P21,Tater-Tots,9,NA,NA,NA,NA,119387.194665,
P21,Onion Rings,9,NA,NA,NA,NA,120370.086519,
P21,Mashed Potatoes,9,NA,NA,NA,NA,121801.882211,
P21,Saltine Crackers,3,NA,NA,NA,NA,124264.010388,
P21,Liver And Onions,1,NA,NA,NA,NA,126257.415102,
P21,Vegetable Salad,9,NA,NA,NA,NA,128017.65607,
P21,NA,NA,Chicken Wings,Rigattoni With Marinara Sauce,C,c,1299.88700513,
P21,NA,NA,Green Beans,Tomato Soup,C,d,1072.3908795,
P21,NA,NA,Boiled Spinach,Avocado,C,d,528.946452746,
P21,NA,NA,Saltine Crackers,Potato Chips,D,c,836.547104428,
P21,NA,NA,Grilled Chicken Sandwich,Broccoli,C,c,665.678858172,
P21,NA,NA,Fried Egg,Peas,C,d,781.885461668,
P21,NA,NA,Oatmeal,Mashed Potatoes,D,c,1129.42365993,
P21,NA,NA,Toast,Onion Rings,C,c,540.186678259,
P21,NA,NA,Asparagus,Tater-Tots,D,c,4877.91355776,
P21,NA,NA,Baked Potato,Glazed Donut,C,d,5379.97266007,
P21,NA,NA,French Toast,Pop Tart,C,c,832.10047638,
P21,NA,NA,Brussel Sprouts,Popcorn,D,c,575.20151525,
P21,NA,NA,Turkey Sub,Bagel,D,d,844.012115911,
P21,NA,NA,Carrots,Taco,C,d,925.342601584,
P21,NA,NA,Sausage And Biscuit Sandwich,Waffles,D,d,1139.59055001,
P21,NA,NA,Raspberry Shake,Garlic Bread,C,c,893.528899772,
P21,NA,NA,Croissant,Pizza,D,c,687.809697165,
P21,NA,NA,Chicken Wings,Rigattoni With Marinara Sauce,C,c,496.23554581,
P21,NA,NA,Green Beans,Tomato Soup,C,c,1904.73668023,
P21,NA,NA,Hot Dog,Boiled Spinach,C,c,960.59978328,
P21,NA,NA,Saltine Crackers,Potato Chips,D,d,702.462281795,
P21,NA,NA,Grilled Chicken Sandwich,Apple,C,c,1333.95928013,
P21,NA,NA,Peas,Vegetable Salad,C,c,1807.43064621,
P21,NA,NA,Steak,Mashed Potatoes,C,c,687.108155595,
P21,Toast,3,NA,NA,NA,NA,1819.05226667,
P21,Carrots,4,NA,NA,NA,NA,3555.02631857,
P21,Chicken Wings,1,NA,NA,NA,NA,5146.33581097,
P21,Ham,1,NA,NA,NA,NA,5994.55088593,
P21,Fried Chicken,1,NA,NA,NA,NA,6736.74578074,
P21,Potato Chips,9,NA,NA,NA,NA,8089.71322874,
P21,Avocado,6,NA,NA,NA,NA,9958.32995364,
P21,Boiled Spinach,4,NA,NA,NA,NA,11457.5335599,
P21,Bagel,5,NA,NA,NA,NA,12650.7686995,
P21,Brussel Sprouts,4,NA,NA,NA,NA,14170.7967347,
P21,Sausage And Biscuit Sandwich,1,NA,NA,NA,NA,15201.0514185,
P21,Green Beans,2,NA,NA,NA,NA,17273.3313888,
P21,Tomato Soup,6,NA,NA,NA,NA,18743.3056414,
P21,Jell-O,1,NA,NA,NA,NA,19713.5541871,
P21,Pizza,9,NA,NA,NA,NA,20952.0889153,
P21,Garlic Bread,8,NA,NA,NA,NA,22092.0380163,
P21,Turkey Sub,1,NA,NA,NA,NA,23711.8256601,
P21,Oysters,1,NA,NA,NA,NA,24811.3594776,
P21,French Fries,9,NA,NA,NA,NA,26004.851198,
P21,Rigattoni With Marinara Sauce,6,NA,NA,NA,NA,27977.6768082,
P21,French Toast,1,NA,NA,NA,NA,29573.1286735,
P21,Taco,6,NA,NA,NA,NA,31032.9075637,
P21,Cheeseburger,1,NA,NA,NA,NA,32036.6923788,
P21,Sushi,1,NA,NA,NA,NA,33146.4639358,
P21,Broccoli,5,NA,NA,NA,NA,34350.4820905,
P21,Pop Tart,5,NA,NA,NA,NA,35955.4588972,
P21,Baked Potato,5,NA,NA,NA,NA,38201.9516032,
P21,Asparagus,4,NA,NA,NA,NA,39930.0789176,
P21,Croissant,5,NA,NA,NA,NA,41869.89069,
P21,Oatmeal,3,NA,NA,NA,NA,43421.410625,
P21,Ruben Sandwich,1,NA,NA,NA,NA,45726.9430699,
P21,Chocolate Chip Cookie,9,NA,NA,NA,NA,47186.1276859,
P21,Peas,2,NA,NA,NA,NA,48999.2885263,
P21,Popcorn,9,NA,NA,NA,NA,49801.4945252,
P21,Veggie Sandwich,9,NA,NA,NA,NA,50854.8421432,
P21,Steak,1,NA,NA,NA,NA,51901.7345193,
P21,Fried Egg,1,NA,NA,NA,NA,53473.0330267,
P21,Grilled Chicken Sandwich,1,NA,NA,NA,NA,54332.4217818,
P21,Chicken Nuggets,1,NA,NA,NA,NA,55220.9806286,
P21,Raspberry Shake,6,NA,NA,NA,NA,56874.741888,
P21,Waffles,7,NA,NA,NA,NA,58423.7085957,
P21,Apple,3,NA,NA,NA,NA,60689.7282594,
P21,Hot Dog,1,NA,NA,NA,NA,63673.0144205,
P21,Glazed Donut,9,NA,NA,NA,NA,64914.5837548,
P21,Bacon,1,NA,NA,NA,NA,66251.5961809,
P21,Tater-Tots,9,NA,NA,NA,NA,67144.3778512,
P21,Onion Rings,9,NA,NA,NA,NA,67991.9261471,
P21,Mashed Potatoes,9,NA,NA,NA,NA,68879.312337,
P21,Saltine Crackers,9,NA,NA,NA,NA,69918.1527109,
P21,Liver And Onions,1,NA,NA,NA,NA,71123.4891943,
P21,Vegetable Salad,6,NA,NA,NA,NA,72595.0049181,
